/absorption data CdS taken from S. Adachi
/"Optical constants of crystalline and amorphous semiconductors"
/pp.502-506  (for E perpendicular to c)
/lambda[nm]	alfa[m^-1]
43.9      53100000  
55.2      80000000  
66.4      134000000  
77.7      150000000  
89.0      153000000  
100.0     161000000  
112.0     162000000  
123.0     134000000  
134.0     102000000  
145.0     78900000  
157.0     88000000  
168.0     111000000  
179.0     122000000  
191.0     125000000  
202.0     127000000  
213.0     128000000  
224.0     129000000  
236.0     125000000  
247.0     121000000  
258.0     118000000  
270.0     116000000  
281.0     113000000  
292.0     112000000  
303.0     109000000  
315.0     100000000  
326.0     93700000  
337.0     88700000  
349.0     85200000  
360.0     85400000  
371.0     88500000  
382.0     90400000  
394.0     92600000  
405.0     92300000  
416.0     92800000  
427.0     86700000  
439.0     83000000  
450.0     78300000  
461.0     73700000  
473.0     69400000  
484.0     65400000  
495.0     61400000  
506.0     57600000  
518.0     53900000  
529.0     50100000  
540.0     46500000  
552.0     42600000  
563.0     37900000  
574.0     34300000  
585.0     31400000  
597.0     29600000  
608.0     27700000  
619.0     26000000  
631.0     24900000  
642.0     23800000  
653.0     22700000  
664.0     22300000  
676.0     22900000  
687.0     23000000  
698.0     22200000  
710.0     19000000  
721.0     17100000  
732.0     15200000  
743.0     14500000  
755.0     13800000  
766.0     14100000  
777.0     15200000  
788.0     16700000  
800.0     18200000  
811.0     15700000  
822.0     10500000  
834.0     6640000  
845.0     4930000  
856.0     3960000  
867.0     3070000  
879.0     2100000  
890.0     1120000  
901.0     121000  
913.0     0  
924.0     0  
935.0     0  
946.0     0  
958.0     0  
969.0     0  
980.0     0  
992.0     0  
1000.0    0  
1010.0    0  
1030.0    0  
1040.0    0  
1050.0    0  
1060.0    0  
1070.0    646  
1080.0    3110  
1090.0    5540  
1100.0    7940  
1120.0    10300  
1130.0    12600  
1140.0    14900  
1150.0    17200  
1160.0    19500  
